CV_CB3_D4_-20C
Date/Time: 2/10/2017 1:15:34 PM
Sensor Name: CB3_D4
Type: N
Annealing Status: 0min
Environment: -20C
Tester: Dante + Soumya

Time Delay per Ramp Step (s): 0.500

CV Time Delay per Measurement (s) :0.500

AC Voltage (V): 0.500

Current Number of measurements per voltage: 3.000

IV Time Delay per Measurement (s) :0.500


BiasVoltage	LCR_Cp_freq1	LCR_Cp_freq2	LCR_Rp_freq1	LCR_Rp_freq2	Temperature	Air_Temp	Humidity	Dewpoint	
    1.0000	7.758E-11	7.804E-11	4.114E+9	-6.003E+7	  -20.1332	    7.6094	    4.3254	  -31.1509	
   10.0000	2.571E-11	2.605E-11	-1.935E+9	-4.156E+8	  -20.1031	    7.6382	    4.3257	  -31.1297	
   20.0000	1.830E-11	1.857E-11	-2.391E+9	-3.470E+8	  -20.0897	    7.5940	    4.2995	  -31.2243	
   30.0000	1.515E-11	1.543E-11	-1.856E+9	-3.384E+8	  -20.0829	    7.5620	    4.2957	  -31.2562	
   40.0000	1.328E-11	1.356E-11	-1.981E+9	-3.344E+8	  -20.1103	    7.5620	    4.3172	  -31.2043	
   50.0000	1.202E-11	1.229E-11	-1.418E+9	-3.333E+8	  -20.0611	    7.5952	    4.3428	  -31.1192	
   60.0000	1.107E-11	1.135E-11	-1.464E+9	-3.333E+8	  -20.0867	    7.5455	    4.3558	  -31.1235	
   70.0000	1.035E-11	1.064E-11	-1.489E+9	-3.317E+8	  -20.0867	    7.5126	    4.4083	  -31.0222	
   80.0000	9.847E-12	1.008E-11	-1.410E+9	-3.340E+8	  -20.1046	    7.5275	    4.4447	  -30.9260	
   90.0000	9.446E-12	9.721E-12	-1.770E+9	-3.375E+8	  -20.1065	    7.5275	    4.4630	  -30.8831	
  100.0000	9.290E-12	9.558E-12	-1.433E+9	-3.327E+8	  -20.0855	    7.5635	    4.5108	  -30.7464	
  110.0000	9.186E-12	9.476E-12	-1.611E+9	-3.306E+8	  -20.0939	    7.5815	    4.5142	  -30.7254	
  120.0000	9.196E-12	9.426E-12	-1.551E+9	-3.244E+8	  -20.0909	    7.5652	    4.5104	  -30.7459	
  130.0000	9.144E-12	9.390E-12	-1.190E+9	-3.267E+8	  -20.1477	    7.5505	    4.4987	  -30.7835	
  140.0000	9.119E-12	9.368E-12	-1.335E+9	-2.872E+8	  -20.1210	    7.5573	    4.4649	  -30.8574	
  150.0000	9.102E-12	9.339E-12	-1.259E+9	-3.251E+8	  -20.0623	    7.6243	    4.4602	  -30.8208	
  160.0000	9.033E-12	9.322E-12	4.409E+10	-3.209E+8	  -20.0405	    7.5136	    4.4681	  -30.8812	
  170.0000	8.977E-12	9.309E-12	-9.008E+8	-3.096E+8	  -20.0928	    7.5214	    4.4570	  -30.9015	
  180.0000	9.056E-12	9.294E-12	-1.277E+9	-3.096E+8	  -20.1313	    7.5813	    4.4674	  -30.8344	
  190.0000	9.047E-12	9.282E-12	-1.624E+9	-3.096E+8	  -20.1576	    7.5180	    4.4617	  -30.8928	
  200.0000	9.030E-12	9.264E-12	-1.688E+9	-3.182E+8	  -20.1248	    7.5185	    4.4557	  -30.9065	
  210.0000	8.969E-12	9.254E-12	-1.018E+9	-3.258E+8	  -20.0649	    7.5730	    4.4602	  -30.8573	
  220.0000	8.974E-12	9.250E-12	-2.009E+9	-3.078E+8	  -20.1054	    7.6300	    4.4557	  -30.8271	
  230.0000	8.901E-12	9.238E-12	-1.086E+9	-3.187E+8	  -20.1221	    7.6300	    4.4361	  -30.8731	
  240.0000	8.916E-12	9.232E-12	-9.524E+8	-3.059E+8	  -20.1317	    7.5838	    4.4371	  -30.9037	
  250.0000	8.891E-12	9.222E-12	-1.090E+9	-3.172E+8	  -20.1065	    7.5838	    4.4339	  -30.9112	
  260.0000	8.880E-12	9.217E-12	-8.599E+8	-3.079E+8	  -20.0836	    7.6082	    4.4367	  -30.8871	
  270.0000	8.921E-12	9.211E-12	-2.219E+9	-3.098E+8	  -20.1210	    7.5669	    4.4326	  -30.9262	
  280.0000	8.942E-12	9.203E-12	-2.929E+9	-3.129E+8	  -20.0783	    7.5862	    4.4244	  -30.9318	
  290.0000	8.962E-12	9.198E-12	3.170E+9	-3.094E+8	  -20.1340	    7.5171	    4.4269	  -30.9750	
  300.0000	8.863E-12	9.192E-12	-8.160E+8	-3.094E+8	  -20.1096	    7.5432	    4.4254	  -30.9601	
  310.0000	8.903E-12	9.186E-12	-2.411E+9	-3.094E+8	  -20.0806	    7.4985	    4.4225	  -30.9987	
  320.0000	8.912E-12	9.181E-12	-1.942E+9	-3.077E+8	  -20.0649	    7.4985	    4.3960	  -31.0614	
  330.0000	8.855E-12	9.178E-12	-8.807E+8	-2.997E+8	  -20.1279	    7.5029	    4.4048	  -31.0373	
  340.0000	8.884E-12	9.171E-12	-2.821E+9	-3.053E+8	  -20.1599	    7.4929	    4.3918	  -31.0751	
  350.0000	8.834E-12	9.166E-12	-1.111E+9	-3.102E+8	  -20.1271	    7.5773	    4.4178	  -30.9784	
  360.0000	8.908E-12	9.161E-12	2.785E+9	-3.076E+8	  -20.1237	    7.5360	    4.4624	  -30.8785	
  370.0000	8.879E-12	9.159E-12	-1.826E+10	-3.180E+8	  -20.0691	    7.4901	    4.4997	  -30.8243	
  380.0000	8.879E-12	9.155E-12	-4.293E+9	-2.960E+8	  -20.0546	    7.4901	    4.5623	  -30.6801	
  390.0000	8.792E-12	9.148E-12	-1.252E+9	-3.084E+8	  -20.0684	    7.4679	    4.6078	  -30.5921	
  400.0000	8.831E-12	9.140E-12	-8.571E+9	-3.241E+8	  -20.0733	    7.4614	    4.6369	  -30.5309	
  410.0000	8.830E-12	9.141E-12	-1.063E+9	-3.086E+8	  -20.1385	    7.4575	    4.6600	  -30.4817	
  420.0000	8.805E-12	9.138E-12	-9.147E+8	-3.052E+8	  -20.1645	    7.5638	    4.6774	  -30.3666	
  430.0000	8.871E-12	9.137E-12	-2.200E+9	-2.952E+8	  -20.1656	    7.5638	    4.6499	  -30.4284	
  440.0000	8.865E-12	9.127E-12	-1.891E+9	-3.292E+8	  -20.1462	    7.4805	    4.6262	  -30.5416	
  450.0000	8.799E-12	9.126E-12	-8.575E+8	-3.124E+8	  -20.1202	    7.4805	    4.6369	  -30.5173	
  460.0000	8.885E-12	9.119E-12	-1.253E+9	-3.240E+8	  -20.0249	    7.4363	    4.6534	  -30.5118	
  470.0000	8.894E-12	9.128E-12	-1.234E+9	-5.325E+8	  -20.0043	    7.4329	    4.6847	  -30.4441	
  480.0000	8.758E-12	9.118E-12	-1.371E+9	-3.079E+8	  -20.0439	    7.4494	    4.6920	  -30.4160	
  490.0000	8.835E-12	9.115E-12	-2.976E+9	-3.005E+8	  -20.0943	    7.3938	    4.6749	  -30.4940	
  500.0000	8.838E-12	9.106E-12	-8.402E+8	-3.348E+8	  -20.1706	    7.3731	    4.6509	  -30.5627	
  510.0000	8.876E-12	9.104E-12	-1.164E+9	-3.204E+8	  -20.1847	    7.3858	    4.6325	  -30.5949	
  520.0000	8.814E-12	9.107E-12	-6.933E+10	-3.019E+8	  -20.0783	    7.4515	    4.6262	  -30.5623	
  530.0000	8.792E-12	9.108E-12	-9.832E+8	-2.902E+8	  -20.0161	    7.4169	    4.6129	  -30.6171	
  540.0000	8.779E-12	9.107E-12	-8.603E+8	-2.890E+8	  -20.0420	    7.4753	    4.5848	  -30.6393	
  550.0000	8.779E-12	9.098E-12	-6.587E+9	-3.023E+8	  -20.0562	    7.4251	    4.5553	  -30.7424	
  560.0000	8.867E-12	9.096E-12	-1.391E+9	-3.083E+8	  -20.1202	    7.4550	    4.5459	  -30.7428	
  570.0000	8.758E-12	9.100E-12	-8.332E+8	-2.832E+8	  -20.1515	    7.4997	    4.5294	  -30.7488	
  580.0000	8.823E-12	9.096E-12	-2.668E+9	-2.912E+8	  -20.1633	    7.4477	    4.5063	  -30.8392	
  590.0000	8.844E-12	9.096E-12	-1.651E+9	-5.319E+8	  -20.1595	    7.5171	    4.4693	  -30.8757	
  600.0000	8.764E-12	9.086E-12	1.796E+11	-3.037E+8	  -20.0745	    7.5618	    4.4646	  -30.8549	
  610.0000	8.823E-12	9.085E-12	-2.504E+9	-3.079E+8	  -20.0695	    7.5268	    4.4522	  -30.9087	
  620.0000	8.831E-12	9.084E-12	-1.155E+9	-2.984E+8	  -20.0813	    7.4540	    4.4386	  -30.9924	
  630.0000	8.832E-12	9.073E-12	-1.591E+9	-3.054E+8	  -20.1302	    7.4499	    4.4254	  -31.0266	
  640.0000	8.837E-12	9.073E-12	-1.249E+9	-3.233E+8	  -20.1618	    7.5133	    4.4304	  -30.9695	
  650.0000	8.771E-12	9.072E-12	-1.044E+9	-3.221E+8	  -20.0806	    7.4683	    4.4519	  -30.9511	
  660.0000	8.758E-12	9.076E-12	-8.021E+8	-2.997E+8	  -20.0058	    7.5281	    4.4753	  -30.8538	
  670.0000	8.823E-12	9.067E-12	-1.329E+9	-3.263E+8	  -20.0127	    7.4692	    4.4810	  -30.8826	
  680.0000	8.821E-12	9.065E-12	-1.490E+9	-3.256E+8	  -20.0584	    7.4081	    4.4855	  -30.9159	
  690.0000	8.733E-12	9.067E-12	-9.432E+8	-3.047E+8	  -20.1027	    7.4340	    4.5044	  -30.8533	
  700.0000	8.837E-12	9.061E-12	-1.258E+9	-3.259E+8	  -20.1077	    7.4465	    4.5949	  -30.6369	
  710.0000	8.818E-12	9.057E-12	-1.455E+9	-2.990E+8	  -20.0890	    7.4102	    4.6515	  -30.5348	
  720.0000	8.702E-12	9.063E-12	-1.178E+9	-2.898E+8	  -20.1485	    7.4408	    4.6818	  -30.4448	
  730.0000	8.803E-12	9.065E-12	-2.373E+9	-2.858E+8	  -20.1584	    7.4994	    4.7132	  -30.3329	
  740.0000	8.887E-12	9.059E-12	-1.278E+9	-3.039E+8	  -20.1263	    7.4632	    4.7834	  -30.2038	
  750.0000	8.810E-12	9.064E-12	-1.525E+9	-5.169E+8	  -20.0264	    7.4501	    4.8178	  -30.1379	
  760.0000	8.828E-12	9.051E-12	-1.348E+9	-3.267E+8	  -19.9924	    7.4637	    4.8561	  -30.0449	
  770.0000	8.723E-12	9.056E-12	-8.834E+8	-2.962E+8	  -20.0199	    7.4205	    4.8770	  -30.0309	
  780.0000	8.829E-12	9.047E-12	-1.308E+9	-3.250E+8	  -20.1180	    7.4489	    4.8966	  -29.9682	
  790.0000	1.010E-11	9.061E-12	5.343E+8	-5.615E+8	  -20.1530	    7.4465	    4.9282	  -29.9022	
  800.0000	1.007E-11	9.183E-12	2.780E+9	4.299E+7	  -20.1408	    7.4786	    4.9339	  -29.8670	
  810.0000	9.999E-12	9.273E-12	6.228E+9	3.583E+7	  -20.1332	    7.4866	    4.9494	  -29.8282	
  820.0000	9.932E-12	9.421E-12	3.919E+9	3.384E+7	  -20.1080	    7.4864	    4.9399	  -29.8486	
  830.0000	9.906E-12	9.416E-12	-2.637E+9	3.198E+7	  -20.0748	    7.4724	    4.9260	  -29.8883	
  840.0000	1.003E-11	9.512E-12	4.118E+10	3.126E+7	  -20.0363	    7.4531	    4.9273	  -29.8996	
  850.0000	9.999E-12	9.586E-12	8.736E+9	2.957E+7	  -20.0680	    7.4449	    4.9323	  -29.8946	
  860.0000	9.970E-12	9.670E-12	1.206E+11	2.955E+7	  -20.0798	    7.4668	    4.9541	  -29.8324	
  870.0000	1.002E-11	9.739E-12	-4.406E+9	2.916E+7	  -20.1134	    7.4258	    4.9564	  -29.8572	
  880.0000	9.987E-12	9.836E-12	-2.551E+9	3.040E+7	  -20.2095	    7.4258	    4.9703	  -29.8276	
  890.0000	9.981E-12	9.964E-12	-2.910E+9	3.177E+7	  -20.1378	    7.4075	    4.9769	  -29.8268	
  900.0000	9.994E-12	1.007E-11	-3.687E+9	3.675E+7	  -20.0840	    7.3565	    4.9943	  -29.8268	
  910.0000	1.002E-11	1.012E-11	-2.171E+9	4.068E+7	  -20.0226	    7.3635	    4.9975	  -29.8151	
  920.0000	9.983E-12	1.015E-11	-1.814E+9	4.629E+7	  -20.0436	    7.3735	    4.9940	  -29.8152	
  930.0000	1.000E-11	1.017E-11	-3.247E+9	5.002E+7	  -20.0642	    7.4602	    4.9684	  -29.8069	
  940.0000	1.000E-11	1.018E-11	-1.497E+9	5.762E+7	  -20.1286	    7.4499	    4.9301	  -29.8957	
  950.0000	9.998E-12	1.018E-11	-1.626E+9	6.462E+7	  -20.1954	    7.4981	    4.9231	  -29.8759	
  960.0000	1.000E-11	1.018E-11	-1.534E+9	6.674E+7	  -20.1534	    7.4981	    4.9073	  -29.9098	
  970.0000	9.970E-12	1.019E-11	-1.964E+9	7.204E+7	  -20.0974	    7.4521	    4.8956	  -29.9680	
  980.0000	9.957E-12	1.019E-11	-2.443E+9	7.978E+7	  -20.0027	    7.4521	    4.8988	  -29.9612	
  990.0000	9.972E-12	1.020E-11	-1.747E+9	8.151E+7	  -20.0603	    7.4193	    4.9020	  -29.9780	
 1000.0000	9.989E-12	1.020E-11	-1.526E+9	8.695E+7	  -20.0882	    7.4193	    4.8849	  -30.0147	
